# Atmospheric transmission in the optical: 310-1100nm
# 3.0mm H2O,  sec z = 1.5
# Adopted average extinction used for Rayleigh scattering,
# no dependence on H2O content included for Rayleigh scattering.
# Atmospheric absorption lines for 600-800nm are based on observations 
# from McDonald Observatory, scaled for H2O content and airmass.
# Atmospheric absorption lines for 800-1100nm are from ATRAN models
# run by Tom Geballe.
# No atmospheric absorption lines are included for wavelengths < 600nm
# 
# Author: Inger Jorgensen
# Created: 21 Feb 2001
# 
#  Table mkskytrans_opt.tab  Wed 17:11:57 21-Feb-2001
# wavelength tr_3015
#     [nm]         

      310.0  0.1505
      320.0  0.3222
      340.0  0.4941
      360.0  0.5995
      380.0  0.6612
      400.0  0.7075
      450.0  0.7906
      500.0  0.8354
      550.0  0.8467
      580.3  0.8508
      580.8  0.8509
      581.3  0.8509
      581.7  0.8509
      582.2  0.8510
      582.7  0.8510
      583.2  0.8511
      583.6  0.8511
      584.1  0.8511
      584.6  0.8512
      585.1  0.8512
      585.5  0.8513
      586.0  0.8513
      586.5  0.8514
      586.9  0.8514
      587.4  0.8515
      587.9  0.8515
      588.4  0.8516
      588.8  0.8516
      589.3  0.8517
      589.8  0.8517
      590.2  0.8518
      590.7  0.8518
      591.2  0.8519
      591.7  0.8519
      592.1  0.8520
      592.6  0.8520
      593.1  0.8521
      593.5  0.8521
      594.0  0.8522
      594.5  0.8522
      595.0  0.8523
      595.4  0.8524
      595.9  0.8524
      596.4  0.8525
      596.9  0.8525
      597.3  0.8526
      597.8  0.8526
      598.3  0.8527
      598.7  0.8528
      599.2  0.8528
      599.7  0.8529
      600.2  0.8529
      600.6  0.8530
      601.1  0.8531
      601.6  0.8531
      602.0  0.8532
      602.5  0.8533
      603.0  0.8533
      603.5  0.8534
      603.9  0.8535
      604.4  0.8535
      604.9  0.8536
      605.4  0.8537
      605.8  0.8537
      606.3  0.8538
      606.8  0.8539
      607.2  0.8539
      607.7  0.8540
      608.2  0.8541
      608.7  0.8541
      609.1  0.8542
      609.6  0.8543
      610.1  0.8543
      610.5  0.8544
      611.0  0.8545
      611.5  0.8546
      612.0  0.8546
      612.4  0.8547
      612.9  0.8548
      613.4  0.8548
      613.8  0.8549
      614.3  0.8550
      614.8  0.8551
      615.3  0.8552
      615.7  0.8552
      616.2  0.8553
      616.7  0.8554
      617.2  0.8555
      617.6  0.8555
      618.1  0.8556
      618.6  0.8557
      619.0  0.8558
      619.5  0.8559
      620.0  0.8559
      620.5  0.8553
      620.9  0.8547
      621.4  0.8561
      621.9  0.8549
      622.3  0.8537
      622.8  0.8536
      623.3  0.8523
      623.8  0.8522
      624.2  0.8525
      624.7  0.8514
      625.2  0.8537
      625.6  0.8531
      626.1  0.8510
      626.6  0.8506
      627.1  0.8436
      627.5  0.8368
      628.0  0.8333
      628.5  0.8328
      629.0  0.8364
      629.4  0.8365
      629.9  0.8382
      630.4  0.8400
      630.8  0.8410
      631.3  0.8447
      631.8  0.8458
      632.3  0.8473
      632.7  0.8488
      633.2  0.8503
      633.7  0.8505
      634.1  0.8511
      634.6  0.8526
      635.1  0.8531
      635.6  0.8538
      636.0  0.8543
      636.5  0.8556
      637.0  0.8541
      637.5  0.8555
      637.9  0.8593
      638.4  0.8594
      638.9  0.8595
      639.3  0.8596
      639.8  0.8597
      640.3  0.8598
      640.8  0.8599
      641.2  0.8600
      641.7  0.8601
      642.2  0.8602
      642.6  0.8603
      643.1  0.8604
      643.6  0.8605
      644.1  0.8606
      644.5  0.8607
      645.0  0.8608
      645.5  0.8609
      645.9  0.8610
      646.4  0.8611
      646.9  0.8612
      647.4  0.8613
      647.8  0.8614
      648.3  0.8615
      648.8  0.8616
      649.3  0.8617
      649.7  0.8618
      650.2  0.8619
      650.7  0.8620
      651.1  0.8621
      651.6  0.8622
      652.1  0.8623
      652.6  0.8624
      653.0  0.8625
      653.5  0.8626
      654.0  0.8627
      654.4  0.8628
      654.9  0.8630
      655.4  0.8631
      655.9  0.8632
      656.3  0.8633
      656.8  0.8634
      657.3  0.8635
      657.7  0.8636
      658.2  0.8637
      658.7  0.8638
      659.2  0.8639
      659.6  0.8641
      660.1  0.8642
      660.6  0.8643
      661.1  0.8644
      661.5  0.8645
      662.0  0.8646
      662.5  0.8647
      662.9  0.8648
      663.4  0.8650
      663.9  0.8651
      664.4  0.8652
      664.8  0.8653
      665.3  0.8654
      665.8  0.8655
      666.2  0.8656
      666.7  0.8658
      667.2  0.8659
      667.7  0.8660
      668.1  0.8661
      668.6  0.8662
      669.1  0.8663
      669.6  0.8665
      670.0  0.8666
      670.5  0.8667
      671.0  0.8668
      671.4  0.8669
      671.9  0.8671
      672.4  0.8672
      672.9  0.8673
      673.3  0.8674
      673.8  0.8675
      674.3  0.8677
      674.7  0.8678
      675.2  0.8679
      675.7  0.8680
      676.2  0.8681
      676.6  0.8683
      677.1  0.8684
      677.6  0.8685
      678.0  0.8686
      678.5  0.8688
      679.0  0.8689
      679.5  0.8690
      679.9  0.8691
      680.4  0.8693
      680.9  0.8694
      681.4  0.8695
      681.8  0.8696
      682.3  0.8698
      682.8  0.8699
      683.2  0.8700
      683.7  0.8701
      684.2  0.8703
      684.7  0.8704
      685.1  0.8705
      685.6  0.8522
      686.1  0.7861
      686.5  0.7272
      687.0  0.7134
      687.5  0.7306
      688.0  0.7551
      688.4  0.7694
      688.9  0.7723
      689.4  0.7820
      689.9  0.7932
      690.3  0.8066
      690.8  0.8240
      691.3  0.8370
      691.7  0.8479
      692.2  0.8532
      692.7  0.8552
      693.2  0.8562
      693.6  0.8607
      694.1  0.8639
      694.6  0.8634
      695.0  0.8663
      695.5  0.8713
      696.0  0.8735
      696.5  0.8736
      696.9  0.8738
      697.4  0.8739
      697.9  0.8740
      698.3  0.8742
      698.8  0.8743
      699.3  0.8744
      699.8  0.8746
      700.2  0.8747
      700.7  0.8748
      701.2  0.8750
      701.7  0.8751
      702.1  0.8752
      702.6  0.8754
      703.1  0.8755
      703.5  0.8756
      704.0  0.8758
      704.5  0.8759
      705.0  0.8760
      705.4  0.8762
      705.9  0.8763
      706.4  0.8764
      706.8  0.8766
      707.3  0.8767
      707.8  0.8769
      708.3  0.8770
      708.7  0.8771
      709.2  0.8773
      709.7  0.8774
      710.1  0.8775
      710.6  0.8777
      711.1  0.8778
      711.6  0.8780
      712.0  0.8781
      712.5  0.8782
      713.0  0.8784
      713.5  0.8785
      713.9  0.8781
      714.4  0.8713
      714.9  0.8689
      715.3  0.8697
      715.8  0.8614
      716.3  0.8462
      716.8  0.8287
      717.2  0.8113
      717.7  0.8049
      718.2  0.8030
      718.6  0.7968
      719.1  0.7941
      719.6  0.8008
      720.1  0.8236
      720.5  0.8420
      721.0  0.8491
      721.5  0.8560
      722.0  0.8474
      722.4  0.8331
      722.9  0.8257
      723.4  0.8208
      723.8  0.8174
      724.3  0.8197
      724.8  0.8206
      725.3  0.8241
      725.7  0.8250
      726.2  0.8260
      726.7  0.8212
      727.1  0.8221
      727.6  0.8230
      728.1  0.8295
      728.6  0.8321
      729.0  0.8329
      729.5  0.8359
      730.0  0.8367
      730.4  0.8375
      730.9  0.8458
      731.4  0.8524
      731.9  0.8532
      732.3  0.8540
      732.8  0.8550
      733.3  0.8557
      733.8  0.8586
      734.2  0.8593
      734.7  0.8600
      735.2  0.8600
      735.6  0.8607
      736.1  0.8614
      736.6  0.8658
      737.1  0.8664
      737.5  0.8721
      738.0  0.8722
      738.5  0.8724
      738.9  0.8725
      739.4  0.8773
      739.9  0.8774
      740.4  0.8775
      740.8  0.8823
      741.3  0.8824
      741.8  0.8826
      742.3  0.8827
      742.7  0.8874
      743.2  0.8876
      743.7  0.8877
      744.1  0.8879
      744.6  0.8880
      745.1  0.8882
      745.6  0.8883
      746.0  0.8885
      746.5  0.8886
      747.0  0.8888
      747.4  0.8889
      747.9  0.8891
      748.4  0.8892
      748.9  0.8894
      749.3  0.8895
      749.8  0.8897
      750.3  0.8898
      750.7  0.8900
      751.2  0.8901
      751.7  0.8903
      752.2  0.8904
      752.6  0.8906
      753.1  0.8907
      753.6  0.8909
      754.1  0.8910
      754.5  0.8912
      755.0  0.8913
      755.5  0.8863
      755.9  0.8787
      756.4  0.8791
      756.9  0.8780
      757.4  0.8799
      757.8  0.8647
      758.3  0.7879
      758.8  0.6633
      759.2  0.5372
      759.7  0.4568
      760.2  0.4690
      760.7  0.5418
      761.1  0.5846
      761.6  0.5907
      762.1  0.5760
      762.5  0.5590
      763.0  0.5720
      763.5  0.6121
      764.0  0.6580
      764.4  0.7026
      764.9  0.7440
      765.4  0.7756
      765.9  0.7970
      766.3  0.8184
      766.8  0.8422
      767.3  0.8627
      767.7  0.8777
      768.2  0.8827
      768.7  0.8837
      769.2  0.8840
      769.6  0.8856
      770.1  0.8949
      770.6  0.8963
      771.0  0.8964
      771.5  0.8966
      772.0  0.8967
      772.5  0.8969
      772.9  0.8970
      773.4  0.8972
      773.9  0.8973
      774.4  0.8975
      774.8  0.8976
      775.3  0.8978
      775.8  0.8979
      776.2  0.8981
      776.7  0.8982
      777.2  0.8984
      777.7  0.8985
      778.1  0.8987
      778.6  0.8988
      779.1  0.8990
      779.5  0.8991
      780.0  0.8993
      780.5  0.8995
      781.0  0.8996
      781.4  0.8998
      781.9  0.8999
      782.4  0.9001
      782.8  0.9002
      783.3  0.9004
      783.8  0.9005
      784.3  0.9007
      784.7  0.9008
      785.2  0.9010
      785.7  0.9011
      786.2  0.9013
      786.6  0.9014
      787.1  0.9016
      787.6  0.9017
      788.0  0.9019
      788.5  0.9020
      789.0  0.9022
      789.5  0.9023
      789.9  0.9025
      790.4  0.9026
      790.9  0.9028
      791.3  0.9029
      791.8  0.9031
      792.3  0.9032
      792.8  0.9034
      793.2  0.9035
      793.7  0.9037
      794.2  0.9038
      794.6  0.9040
      795.1  0.9041
      795.6  0.9043
      796.1  0.9044
      796.5  0.9046
      797.0  0.9047
      797.5  0.9049
      798.0  0.9050
      798.4  0.9052
      798.9  0.9053
      799.4  0.9055
      799.8  0.9056
      800.0  0.8977
      800.5  0.8993
      801.0  0.8994
      801.5  0.9001
      802.0  0.9013
      802.5  0.9008
      803.0  0.9009
      803.5  0.9017
      804.0  0.9020
      804.5  0.9022
      805.0  0.9038
      805.5  0.9055
      806.0  0.9059
      806.5  0.9058
      807.0  0.9058
      807.5  0.9060
      808.0  0.9060
      808.5  0.9054
      809.0  0.9050
      809.5  0.9043
      810.0  0.9043
      810.5  0.9051
      811.0  0.9036
      811.5  0.9017
      812.0  0.9009
      812.5  0.8989
      813.0  0.8929
      813.5  0.8830
      814.0  0.8805
      814.5  0.8776
      815.0  0.8704
      815.5  0.8631
      816.0  0.8539
      816.5  0.8408
      817.0  0.8479
      817.5  0.8567
      818.0  0.8496
      818.5  0.8581
      819.0  0.8632
      819.5  0.8624
      820.0  0.8667
      820.5  0.8859
      821.0  0.8994
      821.5  0.8964
      822.0  0.8870
      822.5  0.8550
      823.0  0.8118
      823.5  0.8322
      824.0  0.8757
      824.5  0.8889
      825.0  0.8973
      825.5  0.8930
      826.0  0.8845
      826.5  0.8928
      827.0  0.8958
      827.5  0.8783
      828.0  0.8694
      828.5  0.8745
      829.0  0.8762
      829.5  0.8803
      830.0  0.8871
      830.5  0.8871
      831.0  0.8925
      831.5  0.8951
      832.0  0.8859
      832.5  0.8881
      833.0  0.8989
      833.5  0.9010
      834.0  0.9013
      834.5  0.9062
      835.0  0.9095
      835.5  0.9080
      836.0  0.9077
      836.5  0.9098
      837.0  0.9116
      837.5  0.9116
      838.0  0.9121
      838.5  0.9135
      839.0  0.9142
      839.5  0.9151
      840.0  0.9155
      840.5  0.9152
      841.0  0.9144
      841.5  0.9149
      842.0  0.9158
      842.5  0.9173
      843.0  0.9174
      843.5  0.9168
      844.0  0.9169
      844.5  0.9177
      845.0  0.9185
      845.5  0.9190
      846.0  0.9190
      846.5  0.9192
      847.0  0.9198
      847.5  0.9199
      848.0  0.9195
      848.5  0.9194
      849.0  0.9196
      849.5  0.9198
      850.0  0.9200
      850.5  0.9201
      851.0  0.9199
      851.5  0.9196
      852.0  0.9201
      852.5  0.9207
      853.0  0.9212
      853.5  0.9213
      854.0  0.9212
      854.5  0.9214
      855.0  0.9218
      855.5  0.9220
      856.0  0.9222
      856.5  0.9226
      857.0  0.9226
      857.5  0.9226
      858.0  0.9229
      858.5  0.9233
      859.0  0.9233
      859.5  0.9235
      860.0  0.9237
      860.5  0.9239
      861.0  0.9240
      861.5  0.9241
      862.0  0.9243
      862.5  0.9244
      863.0  0.9245
      863.5  0.9247
      864.0  0.9248
      864.5  0.9250
      865.0  0.9251
      865.5  0.9253
      866.0  0.9254
      866.5  0.9255
      867.0  0.9257
      867.5  0.9258
      868.0  0.9259
      868.5  0.9261
      869.0  0.9262
      869.5  0.9263
      870.0  0.9265
      870.5  0.9266
      871.0  0.9267
      871.5  0.9269
      872.0  0.9270
      872.5  0.9271
      873.0  0.9273
      873.5  0.9274
      874.0  0.9275
      874.5  0.9277
      875.0  0.9278
      875.5  0.9279
      876.0  0.9280
      876.5  0.9282
      877.0  0.9283
      877.5  0.9284
      878.0  0.9285
      878.5  0.9286
      879.0  0.9288
      879.5  0.9289
      880.0  0.9290
      880.5  0.9290
      881.0  0.9291
      881.5  0.9292
      882.0  0.9292
      882.5  0.9293
      883.0  0.9295
      883.5  0.9295
      884.0  0.9297
      884.5  0.9300
      885.0  0.9300
      885.5  0.9296
      886.0  0.9290
      886.5  0.9295
      887.0  0.9301
      887.5  0.9302
      888.0  0.9294
      888.5  0.9298
      889.0  0.9308
      889.5  0.9307
      890.0  0.9302
      890.5  0.9305
      891.0  0.9308
      891.5  0.9304
      892.0  0.9293
      892.5  0.9289
      893.0  0.9252
      893.5  0.9229
      894.0  0.9232
      894.5  0.9197
      895.0  0.9117
      895.5  0.9004
      896.0  0.8929
      896.5  0.8786
      897.0  0.8708
      897.5  0.8700
      898.0  0.8761
      898.5  0.8614
      899.0  0.8203
      899.5  0.8314
      900.0  0.8609
      900.5  0.8497
      901.0  0.8551
      901.5  0.8566
      902.0  0.8530
      902.5  0.8576
      903.0  0.8730
      903.5  0.9021
      904.0  0.9141
      904.5  0.9107
      905.0  0.9123
      905.5  0.9094
      906.0  0.9043
      906.5  0.8860
      907.0  0.8567
      907.5  0.8464
      908.0  0.8578
      908.5  0.8601
      909.0  0.8679
      909.5  0.8742
      910.0  0.8676
      910.5  0.8609
      911.0  0.8706
      911.5  0.8880
      912.0  0.8768
      912.5  0.8794
      913.0  0.8619
      913.5  0.8345
      914.0  0.8503
      914.5  0.8892
      915.0  0.8819
      915.5  0.8351
      916.0  0.8435
      916.5  0.8883
      917.0  0.8899
      917.5  0.8573
      918.0  0.8584
      918.5  0.8830
      919.0  0.8985
      919.5  0.9010
      920.0  0.9065
      920.5  0.9199
      921.0  0.9167
      921.5  0.9072
      922.0  0.9047
      922.5  0.9144
      923.0  0.9168
      923.5  0.9122
      924.0  0.9065
      924.5  0.9033
      925.0  0.9032
      925.5  0.9099
      926.0  0.9120
      926.5  0.9128
      927.0  0.9177
      927.5  0.9020
      928.0  0.8723
      928.5  0.8613
      929.0  0.8589
      929.5  0.8399
      930.0  0.8077
      930.5  0.7907
      931.0  0.7670
      931.5  0.7281
      932.0  0.6785
      932.5  0.6604
      933.0  0.6676
      933.5  0.6495
      934.0  0.5925
      934.5  0.5538
      935.0  0.6229
      935.5  0.6324
      936.0  0.5990
      936.5  0.6496
      937.0  0.6248
      937.5  0.6200
      938.0  0.6329
      938.5  0.6543
      939.0  0.7400
      939.5  0.8241
      940.0  0.8231
      940.5  0.7977
      941.0  0.7818
      941.5  0.7755
      942.0  0.7831
      942.5  0.7416
      943.0  0.6710
      943.5  0.7070
      944.0  0.6620
      944.5  0.6270
      945.0  0.7321
      945.5  0.7352
      946.0  0.6722
      946.5  0.6965
      947.0  0.7480
      947.5  0.7548
      948.0  0.7198
      948.5  0.7203
      949.0  0.7885
      949.5  0.7296
      950.0  0.6405
      950.5  0.6879
      951.0  0.8022
      951.5  0.7995
      952.0  0.7143
      952.5  0.6979
      953.0  0.7509
      953.5  0.7931
      954.0  0.7826
      954.5  0.7443
      955.0  0.7541
      955.5  0.7554
      956.0  0.7496
      956.5  0.7501
      957.0  0.7476
      957.5  0.8091
      958.0  0.8108
      958.5  0.7783
      959.0  0.7458
      959.5  0.7337
      960.0  0.7866
      960.5  0.8139
      961.0  0.8268
      961.5  0.8458
      962.0  0.8226
      962.5  0.8011
      963.0  0.8361
      963.5  0.8521
      964.0  0.8114
      964.5  0.8055
      965.0  0.8332
      965.5  0.8712
      966.0  0.8604
      966.5  0.8349
      967.0  0.8526
      967.5  0.8890
      968.0  0.9008
      968.5  0.8987
      969.0  0.9166
      969.5  0.9203
      970.0  0.9098
      970.5  0.9056
      971.0  0.9168
      971.5  0.9120
      972.0  0.9070
      972.5  0.9041
      973.0  0.9018
      973.5  0.8882
      974.0  0.8739
      974.5  0.8799
      975.0  0.8828
      975.5  0.8792
      976.0  0.8741
      976.5  0.8837
      977.0  0.9082
      977.5  0.9179
      978.0  0.9062
      978.5  0.9010
      979.0  0.9046
      979.5  0.8994
      980.0  0.9023
      980.5  0.9085
      981.0  0.9265
      981.5  0.9321
      982.0  0.9285
      982.5  0.9224
      983.0  0.9227
      983.5  0.9320
      984.0  0.9375
      984.5  0.9348
      985.0  0.9322
      985.5  0.9374
      986.0  0.9432
      986.5  0.9442
      987.0  0.9418
      987.5  0.9402
      988.0  0.9427
      988.5  0.9455
      989.0  0.9459
      989.5  0.9446
      990.0  0.9432
      990.5  0.9442
      991.0  0.9455
      991.5  0.9460
      992.0  0.9460
      992.5  0.9450
      993.0  0.9442
      993.5  0.9455
      994.0  0.9465
      994.5  0.9468
      995.0  0.9469
      995.5  0.9466
      996.0  0.9466
      996.5  0.9468
      997.0  0.9468
      997.5  0.9467
      998.0  0.9465
      998.5  0.9467
      999.0  0.9466
      999.5  0.9463
     1000.0  0.9463
     1000.5  0.9467
     1001.0  0.9467
     1001.5  0.9452
     1002.0  0.9436
     1002.5  0.9446
     1003.0  0.9464
     1003.5  0.9467
     1004.0  0.9460
     1004.5  0.9462
     1005.0  0.9466
     1005.5  0.9463
     1006.0  0.9465
     1006.5  0.9468
     1007.0  0.9468
     1007.5  0.9465
     1008.0  0.9460
     1008.5  0.9459
     1009.0  0.9449
     1009.5  0.9442
     1010.0  0.9451
     1010.5  0.9463
     1011.0  0.9468
     1011.5  0.9466
     1012.0  0.9461
     1012.5  0.9464
     1013.0  0.9469
     1013.5  0.9471
     1014.0  0.9470
     1014.5  0.9468
     1015.0  0.9468
     1015.5  0.9466
     1016.0  0.9469
     1016.5  0.9471
     1017.0  0.9468
     1017.5  0.9469
     1018.0  0.9471
     1018.5  0.9471
     1019.0  0.9463
     1019.5  0.9458
     1020.0  0.9466
     1020.5  0.9470
     1021.0  0.9471
     1021.5  0.9468
     1022.0  0.9469
     1022.5  0.9469
     1023.0  0.9464
     1023.5  0.9457
     1024.0  0.9454
     1024.5  0.9466
     1025.0  0.9471
     1025.5  0.9470
     1026.0  0.9470
     1026.5  0.9471
     1027.0  0.9469
     1027.5  0.9465
     1028.0  0.9468
     1028.5  0.9469
     1029.0  0.9470
     1029.5  0.9472
     1030.0  0.9473
     1030.5  0.9473
     1031.0  0.9472
     1031.5  0.9472
     1032.0  0.9473
     1032.5  0.9474
     1033.0  0.9473
     1033.5  0.9473
     1034.0  0.9474
     1034.5  0.9474
     1035.0  0.9474
     1035.5  0.9474
     1036.0  0.9473
     1036.5  0.9473
     1037.0  0.9473
     1037.5  0.9473
     1038.0  0.9473
     1038.5  0.9474
     1039.0  0.9473
     1039.5  0.9473
     1040.0  0.9473
     1040.5  0.9474
     1041.0  0.9474
     1041.5  0.9474
     1042.0  0.9474
     1042.5  0.9474
     1043.0  0.9474
     1043.5  0.9474
     1044.0  0.9474
     1044.5  0.9474
     1045.0  0.9474
     1045.5  0.9474
     1046.0  0.9474
     1046.5  0.9474
     1047.0  0.9474
     1047.5  0.9474
     1048.0  0.9474
     1048.5  0.9473
     1049.0  0.9471
     1049.5  0.9469
     1050.0  0.9470
     1050.5  0.9472
     1051.0  0.9473
     1051.5  0.9472
     1052.0  0.9472
     1052.5  0.9472
     1053.0  0.9473
     1053.5  0.9473
     1054.0  0.9473
     1054.5  0.9474
     1055.0  0.9474
     1055.5  0.9474
     1056.0  0.9474
     1056.5  0.9474
     1057.0  0.9474
     1057.5  0.9474
     1058.0  0.9474
     1058.5  0.9474
     1059.0  0.9473
     1059.5  0.9474
     1060.0  0.9474
     1060.5  0.9474
     1061.0  0.9473
     1061.5  0.9473
     1062.0  0.9472
     1062.5  0.9470
     1063.0  0.9469
     1063.5  0.9469
     1064.0  0.9468
     1064.5  0.9465
     1065.0  0.9464
     1065.5  0.9466
     1066.0  0.9467
     1066.5  0.9468
     1067.0  0.9466
     1067.5  0.9460
     1068.0  0.9457
     1068.5  0.9461
     1069.0  0.9462
     1069.5  0.9459
     1070.0  0.9459
     1070.5  0.9464
     1071.0  0.9468
     1071.5  0.9466
     1072.0  0.9457
     1072.5  0.9453
     1073.0  0.9460
     1073.5  0.9468
     1074.0  0.9460
     1074.5  0.9430
     1075.0  0.9434
     1075.5  0.9462
     1076.0  0.9468
     1076.5  0.9461
     1077.0  0.9434
     1077.5  0.9402
     1078.0  0.9429
     1078.5  0.9455
     1079.0  0.9464
     1079.5  0.9448
     1080.0  0.9407
     1080.5  0.9396
     1081.0  0.9407
     1081.5  0.9408
     1082.0  0.9437
     1082.5  0.9458
     1083.0  0.9426
     1083.5  0.9363
     1084.0  0.9382
     1084.5  0.9418
     1085.0  0.9430
     1085.5  0.9386
     1086.0  0.9258
     1086.5  0.9258
     1087.0  0.9366
     1087.5  0.9416
     1088.0  0.9434
     1088.5  0.9420
     1089.0  0.9377
     1089.5  0.9355
     1090.0  0.9323
     1090.5  0.9292
     1091.0  0.9387
     1091.5  0.9444
     1092.0  0.9367
     1092.5  0.9167
     1093.0  0.9192
     1093.5  0.9348
     1094.0  0.9376
     1094.5  0.9298
     1095.0  0.9253
     1095.5  0.9245
     1096.0  0.9176
     1096.5  0.9287
     1097.0  0.9384
     1097.5  0.9278
     1098.0  0.9184
     1098.5  0.9213
     1099.0  0.9159
     1099.5  0.9017
     1100.0  0.9016
