# Atmospheric transmission in the optical: 310-1100nm
# 5.0mm H2O,  sec z = 1.5
# Adopted average extinction used for Rayleigh scattering,
# no dependence on H2O content included for Rayleigh scattering.
# Atmospheric absorption lines for 600-800nm are based on observations 
# from McDonald Observatory, scaled for H2O content and airmass.
# Atmospheric absorption lines for 800-1100nm are from ATRAN models
# run by Tom Geballe.
# No atmospheric absorption lines are included for wavelengths < 600nm
# 
# Author: Inger Jorgensen
# Created: 21 Feb 2001
# 
#  Table mkskytrans_opt.tab  Wed 17:07:00 21-Feb-2001
# wavelength tr_5015
#     [nm]         

      310.0  0.1505
      320.0  0.3222
      340.0  0.4941
      360.0  0.5995
      380.0  0.6612
      400.0  0.7075
      450.0  0.7906
      500.0  0.8354
      550.0  0.8467
      580.3  0.8508
      580.8  0.8509
      581.3  0.8509
      581.7  0.8509
      582.2  0.8510
      582.7  0.8510
      583.2  0.8511
      583.6  0.8511
      584.1  0.8511
      584.6  0.8512
      585.1  0.8512
      585.5  0.8513
      586.0  0.8513
      586.5  0.8514
      586.9  0.8514
      587.4  0.8515
      587.9  0.8515
      588.4  0.8516
      588.8  0.8516
      589.3  0.8517
      589.8  0.8517
      590.2  0.8518
      590.7  0.8518
      591.2  0.8519
      591.7  0.8519
      592.1  0.8520
      592.6  0.8520
      593.1  0.8521
      593.5  0.8521
      594.0  0.8522
      594.5  0.8522
      595.0  0.8523
      595.4  0.8524
      595.9  0.8524
      596.4  0.8525
      596.9  0.8525
      597.3  0.8526
      597.8  0.8526
      598.3  0.8527
      598.7  0.8528
      599.2  0.8528
      599.7  0.8529
      600.2  0.8529
      600.6  0.8530
      601.1  0.8531
      601.6  0.8531
      602.0  0.8532
      602.5  0.8533
      603.0  0.8533
      603.5  0.8534
      603.9  0.8535
      604.4  0.8535
      604.9  0.8536
      605.4  0.8537
      605.8  0.8537
      606.3  0.8538
      606.8  0.8539
      607.2  0.8539
      607.7  0.8540
      608.2  0.8541
      608.7  0.8541
      609.1  0.8542
      609.6  0.8543
      610.1  0.8543
      610.5  0.8544
      611.0  0.8545
      611.5  0.8546
      612.0  0.8546
      612.4  0.8547
      612.9  0.8548
      613.4  0.8548
      613.8  0.8549
      614.3  0.8550
      614.8  0.8551
      615.3  0.8552
      615.7  0.8552
      616.2  0.8553
      616.7  0.8554
      617.2  0.8555
      617.6  0.8555
      618.1  0.8556
      618.6  0.8557
      619.0  0.8558
      619.5  0.8559
      620.0  0.8559
      620.5  0.8553
      620.9  0.8547
      621.4  0.8561
      621.9  0.8549
      622.3  0.8537
      622.8  0.8536
      623.3  0.8523
      623.8  0.8522
      624.2  0.8525
      624.7  0.8514
      625.2  0.8537
      625.6  0.8531
      626.1  0.8510
      626.6  0.8506
      627.1  0.8436
      627.5  0.8368
      628.0  0.8333
      628.5  0.8328
      629.0  0.8364
      629.4  0.8365
      629.9  0.8382
      630.4  0.8400
      630.8  0.8410
      631.3  0.8447
      631.8  0.8458
      632.3  0.8473
      632.7  0.8488
      633.2  0.8503
      633.7  0.8505
      634.1  0.8511
      634.6  0.8526
      635.1  0.8531
      635.6  0.8538
      636.0  0.8543
      636.5  0.8556
      637.0  0.8541
      637.5  0.8555
      637.9  0.8593
      638.4  0.8594
      638.9  0.8595
      639.3  0.8596
      639.8  0.8597
      640.3  0.8598
      640.8  0.8599
      641.2  0.8600
      641.7  0.8601
      642.2  0.8602
      642.6  0.8603
      643.1  0.8604
      643.6  0.8605
      644.1  0.8606
      644.5  0.8607
      645.0  0.8608
      645.5  0.8609
      645.9  0.8610
      646.4  0.8611
      646.9  0.8612
      647.4  0.8613
      647.8  0.8614
      648.3  0.8615
      648.8  0.8616
      649.3  0.8617
      649.7  0.8618
      650.2  0.8619
      650.7  0.8620
      651.1  0.8621
      651.6  0.8622
      652.1  0.8623
      652.6  0.8624
      653.0  0.8625
      653.5  0.8626
      654.0  0.8627
      654.4  0.8628
      654.9  0.8630
      655.4  0.8631
      655.9  0.8632
      656.3  0.8633
      656.8  0.8634
      657.3  0.8635
      657.7  0.8636
      658.2  0.8637
      658.7  0.8638
      659.2  0.8639
      659.6  0.8641
      660.1  0.8642
      660.6  0.8643
      661.1  0.8644
      661.5  0.8645
      662.0  0.8646
      662.5  0.8647
      662.9  0.8648
      663.4  0.8650
      663.9  0.8651
      664.4  0.8652
      664.8  0.8653
      665.3  0.8654
      665.8  0.8655
      666.2  0.8656
      666.7  0.8658
      667.2  0.8659
      667.7  0.8660
      668.1  0.8661
      668.6  0.8662
      669.1  0.8663
      669.6  0.8665
      670.0  0.8666
      670.5  0.8667
      671.0  0.8668
      671.4  0.8669
      671.9  0.8671
      672.4  0.8672
      672.9  0.8673
      673.3  0.8674
      673.8  0.8675
      674.3  0.8677
      674.7  0.8678
      675.2  0.8679
      675.7  0.8680
      676.2  0.8681
      676.6  0.8683
      677.1  0.8684
      677.6  0.8685
      678.0  0.8686
      678.5  0.8688
      679.0  0.8689
      679.5  0.8690
      679.9  0.8691
      680.4  0.8693
      680.9  0.8694
      681.4  0.8695
      681.8  0.8696
      682.3  0.8698
      682.8  0.8699
      683.2  0.8700
      683.7  0.8701
      684.2  0.8703
      684.7  0.8704
      685.1  0.8705
      685.6  0.8507
      686.1  0.7791
      686.5  0.7153
      687.0  0.7003
      687.5  0.7189
      688.0  0.7454
      688.4  0.7609
      688.9  0.7640
      689.4  0.7745
      689.9  0.7867
      690.3  0.8012
      690.8  0.8199
      691.3  0.8341
      691.7  0.8459
      692.2  0.8516
      692.7  0.8538
      693.2  0.8548
      693.6  0.8597
      694.1  0.8631
      694.6  0.8626
      695.0  0.8657
      695.5  0.8711
      696.0  0.8735
      696.5  0.8736
      696.9  0.8738
      697.4  0.8739
      697.9  0.8740
      698.3  0.8742
      698.8  0.8743
      699.3  0.8744
      699.8  0.8746
      700.2  0.8747
      700.7  0.8748
      701.2  0.8750
      701.7  0.8751
      702.1  0.8752
      702.6  0.8754
      703.1  0.8755
      703.5  0.8756
      704.0  0.8758
      704.5  0.8759
      705.0  0.8760
      705.4  0.8762
      705.9  0.8763
      706.4  0.8764
      706.8  0.8766
      707.3  0.8767
      707.8  0.8769
      708.3  0.8770
      708.7  0.8771
      709.2  0.8773
      709.7  0.8774
      710.1  0.8775
      710.6  0.8777
      711.1  0.8778
      711.6  0.8780
      712.0  0.8781
      712.5  0.8782
      713.0  0.8784
      713.5  0.8785
      713.9  0.8780
      714.4  0.8706
      714.9  0.8681
      715.3  0.8690
      715.8  0.8599
      716.3  0.8434
      716.8  0.8245
      717.2  0.8056
      717.7  0.7986
      718.2  0.7966
      718.6  0.7898
      719.1  0.7869
      719.6  0.7941
      720.1  0.8188
      720.5  0.8388
      721.0  0.8465
      721.5  0.8539
      722.0  0.8446
      722.4  0.8291
      722.9  0.8210
      723.4  0.8157
      723.8  0.8121
      724.3  0.8145
      724.8  0.8155
      725.3  0.8192
      725.7  0.8203
      726.2  0.8213
      726.7  0.8161
      727.1  0.8171
      727.6  0.8181
      728.1  0.8250
      728.6  0.8278
      729.0  0.8288
      729.5  0.8319
      730.0  0.8328
      730.4  0.8337
      730.9  0.8426
      731.4  0.8498
      731.9  0.8506
      732.3  0.8515
      732.8  0.8525
      733.3  0.8534
      733.8  0.8564
      734.2  0.8572
      734.7  0.8580
      735.2  0.8579
      735.6  0.8586
      736.1  0.8594
      736.6  0.8641
      737.1  0.8648
      737.5  0.8709
      738.0  0.8711
      738.5  0.8712
      738.9  0.8714
      739.4  0.8765
      739.9  0.8766
      740.4  0.8768
      740.8  0.8819
      741.3  0.8820
      741.8  0.8822
      742.3  0.8823
      742.7  0.8874
      743.2  0.8876
      743.7  0.8877
      744.1  0.8879
      744.6  0.8880
      745.1  0.8882
      745.6  0.8883
      746.0  0.8885
      746.5  0.8886
      747.0  0.8888
      747.4  0.8889
      747.9  0.8891
      748.4  0.8892
      748.9  0.8894
      749.3  0.8895
      749.8  0.8897
      750.3  0.8898
      750.7  0.8900
      751.2  0.8901
      751.7  0.8903
      752.2  0.8904
      752.6  0.8906
      753.1  0.8907
      753.6  0.8909
      754.1  0.8910
      754.5  0.8912
      755.0  0.8913
      755.5  0.8863
      755.9  0.8787
      756.4  0.8791
      756.9  0.8780
      757.4  0.8799
      757.8  0.8647
      758.3  0.7879
      758.8  0.6633
      759.2  0.5372
      759.7  0.4568
      760.2  0.4690
      760.7  0.5418
      761.1  0.5846
      761.6  0.5907
      762.1  0.5760
      762.5  0.5590
      763.0  0.5720
      763.5  0.6121
      764.0  0.6580
      764.4  0.7026
      764.9  0.7440
      765.4  0.7756
      765.9  0.7970
      766.3  0.8184
      766.8  0.8422
      767.3  0.8627
      767.7  0.8777
      768.2  0.8827
      768.7  0.8837
      769.2  0.8840
      769.6  0.8856
      770.1  0.8949
      770.6  0.8963
      771.0  0.8964
      771.5  0.8966
      772.0  0.8967
      772.5  0.8969
      772.9  0.8970
      773.4  0.8972
      773.9  0.8973
      774.4  0.8975
      774.8  0.8976
      775.3  0.8978
      775.8  0.8979
      776.2  0.8981
      776.7  0.8982
      777.2  0.8984
      777.7  0.8985
      778.1  0.8987
      778.6  0.8988
      779.1  0.8990
      779.5  0.8991
      780.0  0.8993
      780.5  0.8995
      781.0  0.8996
      781.4  0.8998
      781.9  0.8999
      782.4  0.9001
      782.8  0.9002
      783.3  0.9004
      783.8  0.9005
      784.3  0.9007
      784.7  0.9008
      785.2  0.9010
      785.7  0.9011
      786.2  0.9013
      786.6  0.9014
      787.1  0.9016
      787.6  0.9017
      788.0  0.9019
      788.5  0.9020
      789.0  0.9022
      789.5  0.9023
      789.9  0.9025
      790.4  0.9026
      790.9  0.9028
      791.3  0.9029
      791.8  0.9031
      792.3  0.9032
      792.8  0.9034
      793.2  0.9035
      793.7  0.9037
      794.2  0.9038
      794.6  0.9040
      795.1  0.9041
      795.6  0.9043
      796.1  0.9044
      796.5  0.9046
      797.0  0.9047
      797.5  0.9049
      798.0  0.9050
      798.4  0.9052
      798.9  0.9053
      799.4  0.9055
      799.8  0.9056
      800.0  0.8924
      800.5  0.8950
      801.0  0.8951
      801.5  0.8961
      802.0  0.8980
      802.5  0.8969
      803.0  0.8970
      803.5  0.8983
      804.0  0.8987
      804.5  0.8989
      805.0  0.9015
      805.5  0.9042
      806.0  0.9048
      806.5  0.9045
      807.0  0.9044
      807.5  0.9046
      808.0  0.9045
      808.5  0.9034
      809.0  0.9027
      809.5  0.9014
      810.0  0.9014
      810.5  0.9026
      811.0  0.9002
      811.5  0.8971
      812.0  0.8956
      812.5  0.8926
      813.0  0.8840
      813.5  0.8694
      814.0  0.8657
      814.5  0.8615
      815.0  0.8508
      815.5  0.8415
      816.0  0.8314
      816.5  0.8149
      817.0  0.8241
      817.5  0.8357
      818.0  0.8250
      818.5  0.8363
      819.0  0.8449
      819.5  0.8444
      820.0  0.8486
      820.5  0.8739
      821.0  0.8922
      821.5  0.8877
      822.0  0.8749
      822.5  0.8317
      823.0  0.7744
      823.5  0.8013
      824.0  0.8593
      824.5  0.8778
      825.0  0.8901
      825.5  0.8839
      826.0  0.8716
      826.5  0.8826
      827.0  0.8870
      827.5  0.8626
      828.0  0.8505
      828.5  0.8587
      829.0  0.8609
      829.5  0.8653
      830.0  0.8742
      830.5  0.8745
      831.0  0.8821
      831.5  0.8852
      832.0  0.8727
      832.5  0.8762
      833.0  0.8905
      833.5  0.8929
      834.0  0.8935
      834.5  0.9008
      835.0  0.9055
      835.5  0.9030
      836.0  0.9025
      836.5  0.9057
      837.0  0.9083
      837.5  0.9081
      838.0  0.9089
      838.5  0.9109
      839.0  0.9119
      839.5  0.9133
      840.0  0.9139
      840.5  0.9133
      841.0  0.9119
      841.5  0.9126
      842.0  0.9140
      842.5  0.9162
      843.0  0.9164
      843.5  0.9152
      844.0  0.9153
      844.5  0.9166
      845.0  0.9178
      845.5  0.9185
      846.0  0.9184
      846.5  0.9186
      847.0  0.9195
      847.5  0.9197
      848.0  0.9189
      848.5  0.9187
      849.0  0.9188
      849.5  0.9191
      850.0  0.9194
      850.5  0.9195
      851.0  0.9189
      851.5  0.9184
      852.0  0.9192
      852.5  0.9201
      853.0  0.9208
      853.5  0.9208
      854.0  0.9205
      854.5  0.9208
      855.0  0.9214
      855.5  0.9216
      856.0  0.9219
      856.5  0.9224
      857.0  0.9225
      857.5  0.9223
      858.0  0.9228
      858.5  0.9232
      859.0  0.9233
      859.5  0.9234
      860.0  0.9237
      860.5  0.9239
      861.0  0.9239
      861.5  0.9241
      862.0  0.9243
      862.5  0.9244
      863.0  0.9245
      863.5  0.9247
      864.0  0.9248
      864.5  0.9250
      865.0  0.9251
      865.5  0.9253
      866.0  0.9254
      866.5  0.9255
      867.0  0.9257
      867.5  0.9258
      868.0  0.9259
      868.5  0.9261
      869.0  0.9262
      869.5  0.9263
      870.0  0.9265
      870.5  0.9266
      871.0  0.9267
      871.5  0.9269
      872.0  0.9270
      872.5  0.9271
      873.0  0.9273
      873.5  0.9274
      874.0  0.9275
      874.5  0.9277
      875.0  0.9278
      875.5  0.9279
      876.0  0.9280
      876.5  0.9281
      877.0  0.9283
      877.5  0.9284
      878.0  0.9284
      878.5  0.9284
      879.0  0.9287
      879.5  0.9289
      880.0  0.9289
      880.5  0.9288
      881.0  0.9289
      881.5  0.9290
      882.0  0.9289
      882.5  0.9291
      883.0  0.9293
      883.5  0.9292
      884.0  0.9294
      884.5  0.9298
      885.0  0.9298
      885.5  0.9289
      886.0  0.9279
      886.5  0.9286
      887.0  0.9295
      887.5  0.9296
      888.0  0.9283
      888.5  0.9288
      889.0  0.9304
      889.5  0.9301
      890.0  0.9292
      890.5  0.9296
      891.0  0.9301
      891.5  0.9293
      892.0  0.9274
      892.5  0.9268
      893.0  0.9210
      893.5  0.9174
      894.0  0.9182
      894.5  0.9127
      895.0  0.9010
      895.5  0.8856
      896.0  0.8757
      896.5  0.8567
      897.0  0.8459
      897.5  0.8444
      898.0  0.8543
      898.5  0.8369
      899.0  0.7827
      899.5  0.7976
      900.0  0.8364
      900.5  0.8192
      901.0  0.8241
      901.5  0.8298
      902.0  0.8280
      902.5  0.8330
      903.0  0.8511
      903.5  0.8882
      904.0  0.9039
      904.5  0.8984
      905.0  0.9010
      905.5  0.8977
      906.0  0.8901
      906.5  0.8651
      907.0  0.8300
      907.5  0.8170
      908.0  0.8287
      908.5  0.8316
      909.0  0.8416
      909.5  0.8473
      910.0  0.8383
      910.5  0.8302
      911.0  0.8426
      911.5  0.8666
      912.0  0.8525
      912.5  0.8554
      913.0  0.8302
      913.5  0.7934
      914.0  0.8156
      914.5  0.8669
      915.0  0.8557
      915.5  0.7942
      916.0  0.8070
      916.5  0.8653
      917.0  0.8663
      917.5  0.8221
      918.0  0.8238
      918.5  0.8574
      919.0  0.8798
      919.5  0.8843
      920.0  0.8926
      920.5  0.9104
      921.0  0.9047
      921.5  0.8908
      922.0  0.8875
      922.5  0.9019
      923.0  0.9049
      923.5  0.8972
      924.0  0.8882
      924.5  0.8835
      925.0  0.8840
      925.5  0.8941
      926.0  0.8967
      926.5  0.8979
      927.0  0.9052
      927.5  0.8825
      928.0  0.8414
      928.5  0.8266
      929.0  0.8229
      929.5  0.7986
      930.0  0.7596
      930.5  0.7437
      931.0  0.7207
      931.5  0.6779
      932.0  0.6193
      932.5  0.5954
      933.0  0.6014
      933.5  0.5764
      934.0  0.5112
      934.5  0.4743
      935.0  0.5534
      935.5  0.5652
      936.0  0.5294
      936.5  0.5811
      937.0  0.5475
      937.5  0.5406
      938.0  0.5538
      938.5  0.5820
      939.0  0.6872
      939.5  0.7850
      940.0  0.7789
      940.5  0.7437
      941.0  0.7251
      941.5  0.7205
      942.0  0.7333
      942.5  0.6880
      943.0  0.6086
      943.5  0.6519
      944.0  0.6015
      944.5  0.5578
      945.0  0.6742
      945.5  0.6763
      946.0  0.6039
      946.5  0.6311
      947.0  0.6870
      947.5  0.6939
      948.0  0.6567
      948.5  0.6614
      949.0  0.7411
      949.5  0.6738
      950.0  0.5686
      950.5  0.6251
      951.0  0.7574
      951.5  0.7511
      952.0  0.6507
      952.5  0.6323
      953.0  0.6931
      953.5  0.7449
      954.0  0.7357
      954.5  0.6922
      955.0  0.7005
      955.5  0.6984
      956.0  0.6922
      956.5  0.6958
      957.0  0.6934
      957.5  0.7661
      958.0  0.7697
      958.5  0.7301
      959.0  0.6871
      959.5  0.6685
      960.0  0.7308
      960.5  0.7661
      961.0  0.7841
      961.5  0.8104
      962.0  0.7819
      962.5  0.7535
      963.0  0.7969
      963.5  0.8178
      964.0  0.7653
      964.5  0.7571
      965.0  0.7923
      965.5  0.8393
      966.0  0.8244
      966.5  0.7919
      967.0  0.8162
      967.5  0.8669
      968.0  0.8840
      968.5  0.8798
      969.0  0.9024
      969.5  0.9071
      970.0  0.8937
      970.5  0.8892
      971.0  0.9044
      971.5  0.8988
      972.0  0.8920
      972.5  0.8856
      973.0  0.8811
      973.5  0.8624
      974.0  0.8432
      974.5  0.8550
      975.0  0.8613
      975.5  0.8555
      976.0  0.8463
      976.5  0.8568
      977.0  0.8900
      977.5  0.9033
      978.0  0.8879
      978.5  0.8825
      979.0  0.8874
      979.5  0.8799
      980.0  0.8838
      980.5  0.8922
      981.0  0.9168
      981.5  0.9239
      982.0  0.9187
      982.5  0.9101
      983.0  0.9110
      983.5  0.9245
      984.0  0.9325
      984.5  0.9282
      985.0  0.9243
      985.5  0.9321
      986.0  0.9410
      986.5  0.9425
      987.0  0.9387
      987.5  0.9363
      988.0  0.9402
      988.5  0.9446
      989.0  0.9452
      989.5  0.9431
      990.0  0.9407
      990.5  0.9423
      991.0  0.9444
      991.5  0.9452
      992.0  0.9453
      992.5  0.9437
      993.0  0.9424
      993.5  0.9444
      994.0  0.9460
      994.5  0.9465
      995.0  0.9466
      995.5  0.9462
      996.0  0.9461
      996.5  0.9465
      997.0  0.9464
      997.5  0.9462
      998.0  0.9460
      998.5  0.9462
      999.0  0.9461
      999.5  0.9456
     1000.0  0.9456
     1000.5  0.9463
     1001.0  0.9462
     1001.5  0.9438
     1002.0  0.9411
     1002.5  0.9427
     1003.0  0.9457
     1003.5  0.9462
     1004.0  0.9450
     1004.5  0.9454
     1005.0  0.9460
     1005.5  0.9456
     1006.0  0.9459
     1006.5  0.9463
     1007.0  0.9463
     1007.5  0.9458
     1008.0  0.9451
     1008.5  0.9448
     1009.0  0.9431
     1009.5  0.9419
     1010.0  0.9435
     1010.5  0.9455
     1011.0  0.9463
     1011.5  0.9461
     1012.0  0.9452
     1012.5  0.9457
     1013.0  0.9466
     1013.5  0.9469
     1014.0  0.9467
     1014.5  0.9463
     1015.0  0.9463
     1015.5  0.9460
     1016.0  0.9465
     1016.5  0.9468
     1017.0  0.9464
     1017.5  0.9464
     1018.0  0.9469
     1018.5  0.9469
     1019.0  0.9455
     1019.5  0.9446
     1020.0  0.9461
     1020.5  0.9467
     1021.0  0.9468
     1021.5  0.9464
     1022.0  0.9464
     1022.5  0.9465
     1023.0  0.9457
     1023.5  0.9445
     1024.0  0.9441
     1024.5  0.9460
     1025.0  0.9469
     1025.5  0.9467
     1026.0  0.9467
     1026.5  0.9468
     1027.0  0.9465
     1027.5  0.9459
     1028.0  0.9464
     1028.5  0.9466
     1029.0  0.9468
     1029.5  0.9471
     1030.0  0.9472
     1030.5  0.9472
     1031.0  0.9471
     1031.5  0.9470
     1032.0  0.9472
     1032.5  0.9473
     1033.0  0.9473
     1033.5  0.9472
     1034.0  0.9473
     1034.5  0.9474
     1035.0  0.9474
     1035.5  0.9473
     1036.0  0.9473
     1036.5  0.9473
     1037.0  0.9473
     1037.5  0.9473
     1038.0  0.9473
     1038.5  0.9473
     1039.0  0.9473
     1039.5  0.9473
     1040.0  0.9473
     1040.5  0.9473
     1041.0  0.9474
     1041.5  0.9474
     1042.0  0.9474
     1042.5  0.9474
     1043.0  0.9474
     1043.5  0.9474
     1044.0  0.9474
     1044.5  0.9474
     1045.0  0.9474
     1045.5  0.9474
     1046.0  0.9474
     1046.5  0.9474
     1047.0  0.9474
     1047.5  0.9474
     1048.0  0.9474
     1048.5  0.9473
     1049.0  0.9471
     1049.5  0.9469
     1050.0  0.9470
     1050.5  0.9472
     1051.0  0.9473
     1051.5  0.9472
     1052.0  0.9472
     1052.5  0.9472
     1053.0  0.9473
     1053.5  0.9473
     1054.0  0.9473
     1054.5  0.9473
     1055.0  0.9474
     1055.5  0.9474
     1056.0  0.9474
     1056.5  0.9474
     1057.0  0.9474
     1057.5  0.9474
     1058.0  0.9474
     1058.5  0.9473
     1059.0  0.9473
     1059.5  0.9473
     1060.0  0.9474
     1060.5  0.9473
     1061.0  0.9473
     1061.5  0.9473
     1062.0  0.9471
     1062.5  0.9468
     1063.0  0.9468
     1063.5  0.9469
     1064.0  0.9468
     1064.5  0.9463
     1065.0  0.9461
     1065.5  0.9464
     1066.0  0.9467
     1066.5  0.9468
     1067.0  0.9464
     1067.5  0.9456
     1068.0  0.9454
     1068.5  0.9459
     1069.0  0.9457
     1069.5  0.9451
     1070.0  0.9451
     1070.5  0.9459
     1071.0  0.9466
     1071.5  0.9461
     1072.0  0.9448
     1072.5  0.9441
     1073.0  0.9451
     1073.5  0.9465
     1074.0  0.9452
     1074.5  0.9406
     1075.0  0.9412
     1075.5  0.9455
     1076.0  0.9464
     1076.5  0.9454
     1077.0  0.9411
     1077.5  0.9360
     1078.0  0.9402
     1078.5  0.9444
     1079.0  0.9457
     1079.5  0.9434
     1080.0  0.9372
     1080.5  0.9354
     1081.0  0.9369
     1081.5  0.9368
     1082.0  0.9412
     1082.5  0.9448
     1083.0  0.9401
     1083.5  0.9304
     1084.0  0.9330
     1084.5  0.9383
     1085.0  0.9402
     1085.5  0.9338
     1086.0  0.9150
     1086.5  0.9152
     1087.0  0.9308
     1087.5  0.9380
     1088.0  0.9410
     1088.5  0.9386
     1089.0  0.9318
     1089.5  0.9283
     1090.0  0.9240
     1090.5  0.9197
     1091.0  0.9340
     1091.5  0.9427
     1092.0  0.9317
     1092.5  0.9026
     1093.0  0.9055
     1093.5  0.9280
     1094.0  0.9319
     1094.5  0.9198
     1095.0  0.9129
     1095.5  0.9119
     1096.0  0.9012
     1096.5  0.9182
     1097.0  0.9331
     1097.5  0.9164
     1098.0  0.9017
     1098.5  0.9063
     1099.0  0.8986
     1099.5  0.8786
     1100.0  0.8783
