# Atmospheric transmission in the optical: 310-1100nm
# 1.6mm H2O,  sec z = 2.0
# Adopted average extinction used for Rayleigh scattering,
# no dependence on H2O content included for Rayleigh scattering.
# Atmospheric absorption lines for 600-800nm are based on observations 
# from McDonald Observatory, scaled for H2O content and airmass.
# Atmospheric absorption lines for 800-1100nm are from ATRAN models
# run by Tom Geballe.
# No atmospheric absorption lines are included for wavelengths < 600nm
# 
# Author: Inger Jorgensen
# Created: 21 Feb 2001
# 
#  Table mkskytrans_opt.tab  Wed 17:07:00 21-Feb-2001
# wavelength tr_1620
#     [nm]         

      310.0  0.0801
      320.0  0.2209
      340.0  0.3906
      360.0  0.5055
      380.0  0.5761
      400.0  0.6304
      450.0  0.7310
      500.0  0.7868
      550.0  0.8010
      580.3  0.8062
      580.8  0.8062
      581.3  0.8063
      581.7  0.8063
      582.2  0.8064
      582.7  0.8064
      583.2  0.8065
      583.6  0.8065
      584.1  0.8066
      584.6  0.8067
      585.1  0.8067
      585.5  0.8068
      586.0  0.8068
      586.5  0.8069
      586.9  0.8069
      587.4  0.8070
      587.9  0.8071
      588.4  0.8071
      588.8  0.8072
      589.3  0.8072
      589.8  0.8073
      590.2  0.8074
      590.7  0.8074
      591.2  0.8075
      591.7  0.8076
      592.1  0.8076
      592.6  0.8077
      593.1  0.8078
      593.5  0.8078
      594.0  0.8079
      594.5  0.8080
      595.0  0.8080
      595.4  0.8081
      595.9  0.8082
      596.4  0.8083
      596.9  0.8083
      597.3  0.8084
      597.8  0.8085
      598.3  0.8086
      598.7  0.8086
      599.2  0.8087
      599.7  0.8088
      600.2  0.8089
      600.6  0.8089
      601.1  0.8090
      601.6  0.8091
      602.0  0.8092
      602.5  0.8093
      603.0  0.8093
      603.5  0.8094
      603.9  0.8095
      604.4  0.8096
      604.9  0.8097
      605.4  0.8098
      605.8  0.8098
      606.3  0.8099
      606.8  0.8100
      607.2  0.8101
      607.7  0.8102
      608.2  0.8103
      608.7  0.8104
      609.1  0.8104
      609.6  0.8105
      610.1  0.8106
      610.5  0.8107
      611.0  0.8108
      611.5  0.8109
      612.0  0.8110
      612.4  0.8111
      612.9  0.8112
      613.4  0.8113
      613.8  0.8114
      614.3  0.8115
      614.8  0.8116
      615.3  0.8116
      615.7  0.8117
      616.2  0.8118
      616.7  0.8119
      617.2  0.8120
      617.6  0.8121
      618.1  0.8122
      618.6  0.8123
      619.0  0.8124
      619.5  0.8125
      620.0  0.8126
      620.5  0.8120
      620.9  0.8114
      621.4  0.8128
      621.9  0.8116
      622.3  0.8105
      622.8  0.8103
      623.3  0.8090
      623.8  0.8089
      624.2  0.8093
      624.7  0.8082
      625.2  0.8106
      625.6  0.8099
      626.1  0.8078
      626.6  0.8074
      627.1  0.8002
      627.5  0.7931
      628.0  0.7896
      628.5  0.7890
      629.0  0.7927
      629.4  0.7929
      629.9  0.7947
      630.4  0.7965
      630.8  0.7976
      631.3  0.8014
      631.8  0.8026
      632.3  0.8042
      632.7  0.8058
      633.2  0.8073
      633.7  0.8076
      634.1  0.8082
      634.6  0.8098
      635.1  0.8104
      635.6  0.8111
      636.0  0.8117
      636.5  0.8130
      637.0  0.8114
      637.5  0.8130
      637.9  0.8169
      638.4  0.8170
      638.9  0.8171
      639.3  0.8173
      639.8  0.8174
      640.3  0.8175
      640.8  0.8176
      641.2  0.8178
      641.7  0.8179
      642.2  0.8180
      642.6  0.8181
      643.1  0.8183
      643.6  0.8184
      644.1  0.8185
      644.5  0.8186
      645.0  0.8188
      645.5  0.8189
      645.9  0.8190
      646.4  0.8192
      646.9  0.8193
      647.4  0.8194
      647.8  0.8195
      648.3  0.8197
      648.8  0.8198
      649.3  0.8199
      649.7  0.8201
      650.2  0.8202
      650.7  0.8203
      651.1  0.8205
      651.6  0.8206
      652.1  0.8207
      652.6  0.8209
      653.0  0.8210
      653.5  0.8212
      654.0  0.8213
      654.4  0.8214
      654.9  0.8216
      655.4  0.8217
      655.9  0.8218
      656.3  0.8220
      656.8  0.8221
      657.3  0.8223
      657.7  0.8224
      658.2  0.8225
      658.7  0.8227
      659.2  0.8228
      659.6  0.8230
      660.1  0.8231
      660.6  0.8233
      661.1  0.8234
      661.5  0.8235
      662.0  0.8237
      662.5  0.8238
      662.9  0.8240
      663.4  0.8241
      663.9  0.8243
      664.4  0.8244
      664.8  0.8246
      665.3  0.8247
      665.8  0.8248
      666.2  0.8250
      666.7  0.8251
      667.2  0.8253
      667.7  0.8254
      668.1  0.8256
      668.6  0.8257
      669.1  0.8259
      669.6  0.8260
      670.0  0.8262
      670.5  0.8263
      671.0  0.8265
      671.4  0.8266
      671.9  0.8268
      672.4  0.8269
      672.9  0.8271
      673.3  0.8273
      673.8  0.8274
      674.3  0.8276
      674.7  0.8277
      675.2  0.8279
      675.7  0.8280
      676.2  0.8282
      676.6  0.8283
      677.1  0.8285
      677.6  0.8286
      678.0  0.8288
      678.5  0.8290
      679.0  0.8291
      679.5  0.8293
      679.9  0.8294
      680.4  0.8296
      680.9  0.8298
      681.4  0.8299
      681.8  0.8301
      682.3  0.8302
      682.8  0.8304
      683.2  0.8306
      683.7  0.8307
      684.2  0.8309
      684.7  0.8310
      685.1  0.8312
      685.6  0.8144
      686.1  0.7536
      686.5  0.6995
      687.0  0.6868
      687.5  0.7027
      688.0  0.7252
      688.4  0.7385
      688.9  0.7412
      689.4  0.7501
      689.9  0.7605
      690.3  0.7729
      690.8  0.7889
      691.3  0.8010
      691.7  0.8110
      692.2  0.8159
      692.7  0.8178
      693.2  0.8188
      693.6  0.8230
      694.1  0.8260
      694.6  0.8256
      695.0  0.8283
      695.5  0.8329
      696.0  0.8350
      696.5  0.8352
      696.9  0.8353
      697.4  0.8355
      697.9  0.8357
      698.3  0.8359
      698.8  0.8360
      699.3  0.8362
      699.8  0.8364
      700.2  0.8365
      700.7  0.8367
      701.2  0.8369
      701.7  0.8371
      702.1  0.8372
      702.6  0.8374
      703.1  0.8376
      703.5  0.8377
      704.0  0.8379
      704.5  0.8381
      705.0  0.8383
      705.4  0.8384
      705.9  0.8386
      706.4  0.8388
      706.8  0.8390
      707.3  0.8391
      707.8  0.8393
      708.3  0.8395
      708.7  0.8397
      709.2  0.8398
      709.7  0.8400
      710.1  0.8402
      710.6  0.8404
      711.1  0.8405
      711.6  0.8407
      712.0  0.8409
      712.5  0.8411
      713.0  0.8413
      713.5  0.8414
      713.9  0.8411
      714.4  0.8348
      714.9  0.8327
      715.3  0.8335
      715.8  0.8259
      716.3  0.8119
      716.8  0.7958
      717.2  0.7798
      717.7  0.7739
      718.2  0.7722
      718.6  0.7665
      719.1  0.7641
      719.6  0.7703
      720.1  0.7914
      720.5  0.8085
      721.0  0.8151
      721.5  0.8215
      722.0  0.8136
      722.4  0.8004
      722.9  0.7936
      723.4  0.7892
      723.8  0.7861
      724.3  0.7882
      724.8  0.7892
      725.3  0.7924
      725.7  0.7933
      726.2  0.7942
      726.7  0.7899
      727.1  0.7908
      727.6  0.7917
      728.1  0.7976
      728.6  0.8001
      729.0  0.8010
      729.5  0.8037
      730.0  0.8046
      730.4  0.8054
      730.9  0.8130
      731.4  0.8192
      731.9  0.8200
      732.3  0.8208
      732.8  0.8217
      733.3  0.8225
      733.8  0.8252
      734.2  0.8259
      734.7  0.8266
      735.2  0.8266
      735.6  0.8273
      736.1  0.8280
      736.6  0.8321
      737.1  0.8328
      737.5  0.8381
      738.0  0.8383
      738.5  0.8385
      738.9  0.8386
      739.4  0.8431
      739.9  0.8433
      740.4  0.8434
      740.8  0.8479
      741.3  0.8481
      741.8  0.8482
      742.3  0.8484
      742.7  0.8529
      743.2  0.8531
      743.7  0.8533
      744.1  0.8534
      744.6  0.8536
      745.1  0.8538
      745.6  0.8540
      746.0  0.8542
      746.5  0.8544
      747.0  0.8546
      747.4  0.8548
      747.9  0.8550
      748.4  0.8552
      748.9  0.8553
      749.3  0.8555
      749.8  0.8557
      750.3  0.8559
      750.7  0.8561
      751.2  0.8563
      751.7  0.8565
      752.2  0.8567
      752.6  0.8569
      753.1  0.8571
      753.6  0.8573
      754.1  0.8574
      754.5  0.8576
      755.0  0.8578
      755.5  0.8526
      755.9  0.8447
      756.4  0.8451
      756.9  0.8440
      757.4  0.8461
      757.8  0.8301
      758.3  0.7495
      758.8  0.6186
      759.2  0.4862
      759.7  0.4017
      760.2  0.4145
      760.7  0.4910
      761.1  0.5360
      761.6  0.5424
      762.1  0.5270
      762.5  0.5091
      763.0  0.5228
      763.5  0.5650
      764.0  0.6133
      764.4  0.6602
      764.9  0.7037
      765.4  0.7369
      765.9  0.7595
      766.3  0.7821
      766.8  0.8071
      767.3  0.8287
      767.7  0.8444
      768.2  0.8498
      768.7  0.8509
      769.2  0.8512
      769.6  0.8529
      770.1  0.8628
      770.6  0.8642
      771.0  0.8644
      771.5  0.8646
      772.0  0.8648
      772.5  0.8650
      772.9  0.8652
      773.4  0.8654
      773.9  0.8656
      774.4  0.8658
      774.8  0.8660
      775.3  0.8661
      775.8  0.8663
      776.2  0.8665
      776.7  0.8667
      777.2  0.8669
      777.7  0.8671
      778.1  0.8673
      778.6  0.8675
      779.1  0.8677
      779.5  0.8679
      780.0  0.8681
      780.5  0.8683
      781.0  0.8685
      781.4  0.8687
      781.9  0.8689
      782.4  0.8691
      782.8  0.8693
      783.3  0.8694
      783.8  0.8696
      784.3  0.8698
      784.7  0.8700
      785.2  0.8702
      785.7  0.8704
      786.2  0.8706
      786.6  0.8708
      787.1  0.8710
      787.6  0.8712
      788.0  0.8714
      788.5  0.8716
      789.0  0.8718
      789.5  0.8720
      789.9  0.8722
      790.4  0.8724
      790.9  0.8725
      791.3  0.8727
      791.8  0.8729
      792.3  0.8731
      792.8  0.8733
      793.2  0.8735
      793.7  0.8737
      794.2  0.8739
      794.6  0.8741
      795.1  0.8743
      795.6  0.8745
      796.1  0.8747
      796.5  0.8749
      797.0  0.8751
      797.5  0.8753
      798.0  0.8754
      798.4  0.8756
      798.9  0.8758
      799.4  0.8760
      799.8  0.8762
      800.0  0.8708
      800.5  0.8720
      801.0  0.8722
      801.5  0.8728
      802.0  0.8737
      802.5  0.8734
      803.0  0.8736
      803.5  0.8742
      804.0  0.8745
      804.5  0.8748
      805.0  0.8760
      805.5  0.8772
      806.0  0.8776
      806.5  0.8776
      807.0  0.8777
      807.5  0.8780
      808.0  0.8781
      808.5  0.8778
      809.0  0.8776
      809.5  0.8771
      810.0  0.8773
      810.5  0.8779
      811.0  0.8769
      811.5  0.8757
      812.0  0.8752
      812.5  0.8739
      813.0  0.8696
      813.5  0.8625
      814.0  0.8607
      814.5  0.8588
      815.0  0.8535
      815.5  0.8478
      816.0  0.8402
      816.5  0.8297
      817.0  0.8351
      817.5  0.8420
      818.0  0.8369
      818.5  0.8437
      819.0  0.8470
      819.5  0.8463
      820.0  0.8501
      820.5  0.8652
      821.0  0.8756
      821.5  0.8736
      822.0  0.8665
      822.5  0.8420
      823.0  0.8088
      823.5  0.8247
      824.0  0.8582
      824.5  0.8681
      825.0  0.8744
      825.5  0.8712
      826.0  0.8650
      826.5  0.8715
      827.0  0.8738
      827.5  0.8607
      828.0  0.8540
      828.5  0.8576
      829.0  0.8589
      829.5  0.8626
      830.0  0.8679
      830.5  0.8679
      831.0  0.8720
      831.5  0.8742
      832.0  0.8673
      832.5  0.8689
      833.0  0.8772
      833.5  0.8790
      834.0  0.8793
      834.5  0.8829
      835.0  0.8854
      835.5  0.8845
      836.0  0.8843
      836.5  0.8859
      837.0  0.8872
      837.5  0.8873
      838.0  0.8878
      838.5  0.8888
      839.0  0.8894
      839.5  0.8901
      840.0  0.8905
      840.5  0.8904
      841.0  0.8899
      841.5  0.8904
      842.0  0.8911
      842.5  0.8921
      843.0  0.8923
      843.5  0.8920
      844.0  0.8921
      844.5  0.8928
      845.0  0.8934
      845.5  0.8939
      846.0  0.8940
      846.5  0.8942
      847.0  0.8946
      847.5  0.8948
      848.0  0.8947
      848.5  0.8947
      849.0  0.8949
      849.5  0.8951
      850.0  0.8954
      850.5  0.8955
      851.0  0.8954
      851.5  0.8953
      852.0  0.8958
      852.5  0.8963
      853.0  0.8967
      853.5  0.8968
      854.0  0.8968
      854.5  0.8971
      855.0  0.8975
      855.5  0.8976
      856.0  0.8979
      856.5  0.8982
      857.0  0.8984
      857.5  0.8984
      858.0  0.8987
      858.5  0.8990
      859.0  0.8992
      859.5  0.8994
      860.0  0.8996
      860.5  0.8998
      861.0  0.9000
      861.5  0.9001
      862.0  0.9003
      862.5  0.9005
      863.0  0.9007
      863.5  0.9008
      864.0  0.9010
      864.5  0.9012
      865.0  0.9014
      865.5  0.9016
      866.0  0.9018
      866.5  0.9019
      867.0  0.9021
      867.5  0.9023
      868.0  0.9025
      868.5  0.9027
      869.0  0.9028
      869.5  0.9030
      870.0  0.9032
      870.5  0.9033
      871.0  0.9035
      871.5  0.9037
      872.0  0.9039
      872.5  0.9040
      873.0  0.9042
      873.5  0.9044
      874.0  0.9046
      874.5  0.9047
      875.0  0.9049
      875.5  0.9051
      876.0  0.9052
      876.5  0.9054
      877.0  0.9056
      877.5  0.9057
      878.0  0.9058
      878.5  0.9060
      879.0  0.9062
      879.5  0.9064
      880.0  0.9065
      880.5  0.9066
      881.0  0.9067
      881.5  0.9069
      882.0  0.9070
      882.5  0.9071
      883.0  0.9074
      883.5  0.9074
      884.0  0.9076
      884.5  0.9079
      885.0  0.9080
      885.5  0.9078
      886.0  0.9075
      886.5  0.9079
      887.0  0.9083
      887.5  0.9085
      888.0  0.9080
      888.5  0.9083
      889.0  0.9092
      889.5  0.9091
      890.0  0.9089
      890.5  0.9091
      891.0  0.9095
      891.5  0.9092
      892.0  0.9085
      892.5  0.9083
      893.0  0.9058
      893.5  0.9042
      894.0  0.9045
      894.5  0.9020
      895.0  0.8963
      895.5  0.8878
      896.0  0.8819
      896.5  0.8710
      897.0  0.8650
      897.5  0.8646
      898.0  0.8685
      898.5  0.8562
      899.0  0.8239
      899.5  0.8325
      900.0  0.8557
      900.5  0.8479
      901.0  0.8531
      901.5  0.8529
      902.0  0.8487
      902.5  0.8526
      903.0  0.8656
      903.5  0.8893
      904.0  0.8990
      904.5  0.8966
      905.0  0.8977
      905.5  0.8954
      906.0  0.8917
      906.5  0.8774
      907.0  0.8527
      907.5  0.8445
      908.0  0.8552
      908.5  0.8572
      909.0  0.8635
      909.5  0.8694
      910.0  0.8643
      910.5  0.8591
      911.0  0.8670
      911.5  0.8801
      912.0  0.8707
      912.5  0.8730
      913.0  0.8602
      913.5  0.8390
      914.0  0.8511
      914.5  0.8816
      915.0  0.8764
      915.5  0.8398
      916.0  0.8458
      916.5  0.8812
      917.0  0.8828
      917.5  0.8579
      918.0  0.8587
      918.5  0.8777
      919.0  0.8892
      919.5  0.8909
      920.0  0.8950
      920.5  0.9053
      921.0  0.9033
      921.5  0.8963
      922.0  0.8945
      922.5  0.9015
      923.0  0.9035
      923.5  0.9004
      924.0  0.8964
      924.5  0.8940
      925.0  0.8938
      925.5  0.8988
      926.0  0.9005
      926.5  0.9012
      927.0  0.9047
      927.5  0.8931
      928.0  0.8707
      928.5  0.8625
      929.0  0.8610
      929.5  0.8460
      930.0  0.8198
      930.5  0.8036
      931.0  0.7807
      931.5  0.7458
      932.0  0.7036
      932.5  0.6897
      933.0  0.6967
      933.5  0.6826
      934.0  0.6329
      934.5  0.5951
      935.0  0.6552
      935.5  0.6634
      936.0  0.6325
      936.5  0.6792
      937.0  0.6599
      937.5  0.6563
      938.0  0.6686
      938.5  0.6857
      939.0  0.7572
      939.5  0.8297
      940.0  0.8311
      940.5  0.8118
      941.0  0.7984
      941.5  0.7917
      942.0  0.7960
      942.5  0.7587
      943.0  0.6964
      943.5  0.7270
      944.0  0.6871
      944.5  0.6587
      945.0  0.7530
      945.5  0.7565
      946.0  0.7014
      946.5  0.7226
      947.0  0.7695
      947.5  0.7762
      948.0  0.7445
      948.5  0.7424
      949.0  0.8006
      949.5  0.7493
      950.0  0.6736
      950.5  0.7143
      951.0  0.8130
      951.5  0.8120
      952.0  0.7389
      952.5  0.7242
      953.0  0.7710
      953.5  0.8068
      954.0  0.7963
      954.5  0.7623
      955.0  0.7723
      955.5  0.7760
      956.0  0.7711
      956.5  0.7699
      957.0  0.7672
      957.5  0.8195
      958.0  0.8204
      958.5  0.7936
      959.0  0.7689
      959.5  0.7606
      960.0  0.8047
      960.5  0.8262
      961.0  0.8360
      961.5  0.8511
      962.0  0.8321
      962.5  0.8146
      963.0  0.8433
      963.5  0.8561
      964.0  0.8239
      964.5  0.8195
      965.0  0.8416
      965.5  0.8724
      966.0  0.8640
      966.5  0.8434
      967.0  0.8573
      967.5  0.8851
      968.0  0.8936
      968.5  0.8924
      969.0  0.9070
      969.5  0.9101
      970.0  0.9017
      970.5  0.8980
      971.0  0.9068
      971.5  0.9027
      972.0  0.8988
      972.5  0.8975
      973.0  0.8962
      973.5  0.8859
      974.0  0.8746
      974.5  0.8778
      975.0  0.8794
      975.5  0.8771
      976.0  0.8739
      976.5  0.8823
      977.0  0.9013
      977.5  0.9087
      978.0  0.8996
      978.5  0.8950
      979.0  0.8980
      979.5  0.8942
      980.0  0.8964
      980.5  0.9012
      981.0  0.9149
      981.5  0.9194
      982.0  0.9168
      982.5  0.9122
      983.0  0.9125
      983.5  0.9193
      984.0  0.9233
      984.5  0.9215
      985.0  0.9197
      985.5  0.9233
      986.0  0.9275
      986.5  0.9283
      987.0  0.9266
      987.5  0.9255
      988.0  0.9272
      988.5  0.9293
      989.0  0.9296
      989.5  0.9287
      990.0  0.9277
      990.5  0.9284
      991.0  0.9293
      991.5  0.9297
      992.0  0.9298
      992.5  0.9291
      993.0  0.9285
      993.5  0.9294
      994.0  0.9302
      994.5  0.9304
      995.0  0.9304
      995.5  0.9303
      996.0  0.9303
      996.5  0.9305
      997.0  0.9304
      997.5  0.9304
      998.0  0.9303
      998.5  0.9304
      999.0  0.9304
      999.5  0.9302
     1000.0  0.9302
     1000.5  0.9305
     1001.0  0.9305
     1001.5  0.9295
     1002.0  0.9284
     1002.5  0.9291
     1003.0  0.9303
     1003.5  0.9305
     1004.0  0.9301
     1004.5  0.9302
     1005.0  0.9305
     1005.5  0.9303
     1006.0  0.9304
     1006.5  0.9306
     1007.0  0.9306
     1007.5  0.9304
     1008.0  0.9301
     1008.5  0.9300
     1009.0  0.9293
     1009.5  0.9288
     1010.0  0.9295
     1010.5  0.9303
     1011.0  0.9307
     1011.5  0.9306
     1012.0  0.9302
     1012.5  0.9305
     1013.0  0.9308
     1013.5  0.9309
     1014.0  0.9309
     1014.5  0.9307
     1015.0  0.9307
     1015.5  0.9306
     1016.0  0.9308
     1016.5  0.9309
     1017.0  0.9307
     1017.5  0.9307
     1018.0  0.9309
     1018.5  0.9309
     1019.0  0.9303
     1019.5  0.9300
     1020.0  0.9306
     1020.5  0.9309
     1021.0  0.9309
     1021.5  0.9307
     1022.0  0.9307
     1022.5  0.9307
     1023.0  0.9304
     1023.5  0.9299
     1024.0  0.9298
     1024.5  0.9306
     1025.0  0.9309
     1025.5  0.9309
     1026.0  0.9308
     1026.5  0.9309
     1027.0  0.9307
     1027.5  0.9305
     1028.0  0.9307
     1028.5  0.9308
     1029.0  0.9309
     1029.5  0.9310
     1030.0  0.9310
     1030.5  0.9310
     1031.0  0.9310
     1031.5  0.9309
     1032.0  0.9310
     1032.5  0.9311
     1033.0  0.9311
     1033.5  0.9311
     1034.0  0.9311
     1034.5  0.9311
     1035.0  0.9311
     1035.5  0.9311
     1036.0  0.9310
     1036.5  0.9310
     1037.0  0.9309
     1037.5  0.9309
     1038.0  0.9310
     1038.5  0.9311
     1039.0  0.9310
     1039.5  0.9310
     1040.0  0.9310
     1040.5  0.9310
     1041.0  0.9311
     1041.5  0.9311
     1042.0  0.9311
     1042.5  0.9311
     1043.0  0.9311
     1043.5  0.9311
     1044.0  0.9311
     1044.5  0.9311
     1045.0  0.9311
     1045.5  0.9311
     1046.0  0.9311
     1046.5  0.9311
     1047.0  0.9311
     1047.5  0.9311
     1048.0  0.9311
     1048.5  0.9310
     1049.0  0.9307
     1049.5  0.9305
     1050.0  0.9306
     1050.5  0.9309
     1051.0  0.9309
     1051.5  0.9309
     1052.0  0.9308
     1052.5  0.9308
     1053.0  0.9309
     1053.5  0.9310
     1054.0  0.9310
     1054.5  0.9310
     1055.0  0.9311
     1055.5  0.9311
     1056.0  0.9311
     1056.5  0.9311
     1057.0  0.9311
     1057.5  0.9311
     1058.0  0.9311
     1058.5  0.9311
     1059.0  0.9310
     1059.5  0.9310
     1060.0  0.9310
     1060.5  0.9310
     1061.0  0.9310
     1061.5  0.9310
     1062.0  0.9309
     1062.5  0.9307
     1063.0  0.9306
     1063.5  0.9305
     1064.0  0.9304
     1064.5  0.9301
     1065.0  0.9300
     1065.5  0.9302
     1066.0  0.9303
     1066.5  0.9304
     1067.0  0.9302
     1067.5  0.9295
     1068.0  0.9291
     1068.5  0.9296
     1069.0  0.9300
     1069.5  0.9299
     1070.0  0.9299
     1070.5  0.9303
     1071.0  0.9306
     1071.5  0.9304
     1072.0  0.9299
     1072.5  0.9296
     1073.0  0.9301
     1073.5  0.9306
     1074.0  0.9301
     1074.5  0.9280
     1075.0  0.9282
     1075.5  0.9302
     1076.0  0.9306
     1076.5  0.9302
     1077.0  0.9283
     1077.5  0.9260
     1078.0  0.9279
     1078.5  0.9298
     1079.0  0.9304
     1079.5  0.9293
     1080.0  0.9263
     1080.5  0.9255
     1081.0  0.9264
     1081.5  0.9265
     1082.0  0.9285
     1082.5  0.9300
     1083.0  0.9276
     1083.5  0.9231
     1084.0  0.9246
     1084.5  0.9271
     1085.0  0.9280
     1085.5  0.9248
     1086.0  0.9153
     1086.5  0.9153
     1087.0  0.9234
     1087.5  0.9270
     1088.0  0.9283
     1088.5  0.9273
     1089.0  0.9243
     1089.5  0.9227
     1090.0  0.9202
     1090.5  0.9179
     1091.0  0.9248
     1091.5  0.9290
     1092.0  0.9232
     1092.5  0.9083
     1093.0  0.9104
     1093.5  0.9221
     1094.0  0.9241
     1094.5  0.9186
     1095.0  0.9152
     1095.5  0.9147
     1096.0  0.9097
     1096.5  0.9177
     1097.0  0.9247
     1097.5  0.9172
     1098.0  0.9105
     1098.5  0.9125
     1099.0  0.9085
     1099.5  0.8977
     1100.0  0.8977
